Folder: MatPlotLib-examples/Templates/membraneTensionTest

Note: README.md
This repository contains the example snippets for drawing graphs and data visualisations using
the powerful tool, "MatPlotLib".

File: membraneTensionTest.csv
Time(s),Extension(mm),ThinMembraneLoad(N),ThickMembraneLoad(N)
0,0,0.00042,0.00831
0.3,0.29944,0.11231,0.32626
0.6,0.60006,0.2413,0.62305
0.9,0.9,0.32753,0.91394
1.2,1.19994,0.42174,1.20199
1.5,1.50012,0.50841,1.46596
1.8,1.80006,0.59919,1.73212
2.1,2.10012,0.69949,1.97152
2.4,2.4,0.78393,2.22975
2.7,2.70006,0.866,2.47726
3,3.00006,0.94777,2.71809
3.3,3.3,1.01331,2.97243
3.6,3.6,1.0961,3.18924
3.9,3.90006,1.1712,3.41881
4.2,4.19994,1.23841,3.63942
4.5,4.5,1.32283,3.86394
4.8,4.8,1.37867,4.07883
5.1,5.1,1.44912,4.30578
5.4,5.4,1.525,4.51532
5.7,5.7,1.59962,4.71638
6,6,1.64983,4.9192
6.3,6.30006,1.73113,5.1162
6.6,6.60006,1.78161,5.31932
6.9,6.9,1.84794,5.51907
7.2,7.20006,1.91198,5.71057
7.5,7.50006,1.95572,5.9038
7.8,7.80006,2.02933,6.08548
8.1,8.1,2.10333,6.26329
8.4,8.40006,2.16293,6.44773
8.7,8.70006,2.21608,6.62049
9,9.00006,2.27253,6.79212
9.3,9.30006,2.32448,6.97045
9.6,9.6,2.38077,7.14585
9.9,9.90006,2.44463,7.29185
10.2,10.2,2.50726,7.46879
10.5,10.5,2.56543,7.64337
10.8,10.80006,2.6036,7.7923
11.1,11.1,2.65252,7.96054
11.4,11.40006,2.71143,8.10654
11.7,11.70012,2.77495,8.26168
12,12.00006,2.83049,8.40971
12.3,12.3,2.88072,8.56057
12.6,12.6,2.88732,8.72018
12.9,12.90006,2.96413,8.86825
13.2,13.19987,3.00991,9.01632
13.5,13.50006,3.07579,9.15063
13.8,13.80012,3.12007,9.29517
14.1,14.10006,3.17103,9.43965
14.4,14.4,3.2049,9.579
14.7,14.70006,3.26352,9.72968
15,15,3.30015,9.86566
15.3,15.3,3.34711,9.99947
15.6,15.60006,3.41407,10.14302
15.9,15.90006,3.4637,10.25828
16.2,16.19994,3.50165,10.40484
16.5,16.50006,3.5455,10.53983
16.8,16.80012,3.58329,10.67843
17.1,17.1,3.62722,10.80571
17.4,17.40006,3.67074,10.92832
17.7,17.70006,3.714,11.05234
18,18,3.76251,11.18035
18.3,18.30006,3.80175,11.31491
18.6,18.60006,3.84943,11.44015
18.9,18.90006,3.88863,11.57332
19.2,19.2,3.94196,11.67891
19.5,19.50006,3.95836,11.80088
19.8,19.80012,4.00897,11.93316
20.1,20.1,4.05164,12.05248
20.4,20.40006,4.08787,12.17156
20.7,20.70006,4.13284,12.29634
21,21,4.17903,12.40677
21.3,21.30006,4.22234,12.52561
21.6,21.60006,4.25925,12.63318
21.9,21.89993,4.28181,12.75219
22.2,22.2,4.32294,12.88288
22.5,22.50006,4.35946,12.99234
22.8,22.80012,4.38793,13.10057
23.1,23.1,4.44069,13.21471
23.4,23.4,4.48996,13.31987
23.7,23.70012,4.5261,13.41521
24,23.99993,4.54918,13.54296
24.3,24.30006,4.59267,13.6506
24.6,24.60012,4.63035,13.76513
24.9,24.9,4.66865,13.8668
25.2,25.20006,4.70683,13.95854
25.5,25.50006,4.72105,14.05432
25.8,25.80006,4.76673,14.17243
26.1,26.10006,4.79812,14.27596
26.4,26.40006,4.83798,14.36449
26.7,26.7,4.87399,14.46518
27,27,4.89955,14.54883
27.3,27.3,4.93983,14.64134
27.6,27.60006,4.97811,14.74173
27.9,27.9,5.01014,14.81829
28.2,28.2,5.03603,14.90563
28.5,28.5,5.07803,14.97021
28.8,28.80006,5.10949,15.0242
29.1,29.09993,5.14915,15.08341
29.4,29.40006,5.17582,15.10338
29.7,29.7,5.20047,15.13999
30,30.00006,5.22178,15.15404
30.3,30.29994,5.26639,15.20526
30.6,30.6,5.30113,15.23118
30.9,30.90006,5.33581,15.23327
31.2,31.20006,5.36878,15.28819
31.5,31.50006,5.39793,15.3681
31.8,31.79993,5.39516,15.47274
32.1,32.1,5.43029,15.55345
32.4,32.40006,5.46746,15.64608
32.7,32.7,5.50752,15.73285
33,33,5.55052,15.81327
33.3,33.30006,5.57335,15.91024
33.6,33.60006,5.60113,15.99404
33.9,33.89993,5.6206,16.08082
34.2,34.20006,5.64799,16.17158
34.5,34.50006,5.67229,16.25651
34.8,34.80006,5.65279,16.3279
35.1,35.10006,5.70017,16.41963
35.4,35.40006,5.72737,16.4955
35.7,35.69999,5.75856,16.58131
36,35.99999,5.77816,16.66309
36.3,36.30006,5.81834,16.73696
36.6,36.60006,5.86053,16.79748
36.9,36.90006,5.88955,16.8695
37.2,37.20006,5.92197,16.94902
37.5,37.49999,5.94322,17.01052
37.8,37.8,5.88453,17.07927
38.1,38.09999,5.94963,17.13112
38.4,38.40006,5.98917,17.1869
38.7,38.7,6.03199,17.22712
39,38.99999,6.05006,17.27327
39.3,39.30006,6.0918,17.34133
39.6,39.60012,6.06321,17.40742
39.9,39.89993,6.11188,17.45847
40.2,40.20006,6.15578,17.50876
40.5,40.50006,6.13294,17.57071
40.8,40.79993,6.17706,17.6066
41.1,41.10005,6.21304,17.6704
41.4,41.40012,6.23889,17.72532
41.7,41.69999,6.26407,17.77254
42,42.00005,6.28668,17.82922
42.3,42.30006,6.32126,17.88115
42.6,42.60006,6.35608,17.92425
42.9,42.89993,6.37675,17.96497
43.2,43.20005,6.39379,18.0022
43.5,43.5,6.34183,18.05214
43.8,43.79999,6.39766,18.09723
44.1,44.10006,6.4369,18.13033
44.4,44.40005,6.47461,18.1671
44.7,44.69993,6.49484,18.20892
45,45.00006,6.52442,18.25402
45.3,45.30012,6.5476,18.28094
45.6,45.59999,6.57351,18.34733
45.9,45.9,6.60877,18.37049
46.2,46.20005,6.62832,18.3929
46.5,46.49999,6.66539,18.43801
46.8,46.80006,6.69071,18.46797
47.1,47.09999,6.64416,18.51781
47.4,47.39999,6.67779,18.56003
47.7,47.69993,6.71297,18.5975
48,48.00005,6.70718,18.62767
48.3,48.30006,6.74445,18.6589
48.6,48.60005,6.77209,18.69477
48.9,48.89999,6.80597,18.74096
49.2,49.19999,6.83519,18.77842
49.5,49.5,6.84956,18.81395
49.8,49.80005,6.87489,18.86213
50.1,50.10006,6.91001,18.90634
50.4,50.40005,6.84168,18.92348
50.7,50.69993,6.88902,18.97559
51,50.99999,6.91211,19.02757
51.3,51.30012,6.94756,19.06806
51.6,51.59999,6.95007,19.10542
51.9,51.89999,6.97561,19.14312
52.2,52.20005,7.01377,19.18031
52.5,52.49999,7.03078,19.22215
52.8,52.79999,6.96983,19.26453
53.1,53.10012,7.00016,19.31132
53.4,53.39999,7.03566,19.3602
53.7,53.69993,7.07426,19.3879
54,54.00006,7.09709,19.41386
54.3,54.30012,7.0908,19.4623
54.6,54.59999,7.10661,19.49497
54.9,54.90005,7.12647,19.54145
55.2,55.20005,7.14181,19.58434
55.5,55.49999,7.14579,19.61695
55.8,55.80006,7.18472,19.66102
56.1,56.10005,7.21623,19.6967
56.4,56.39993,7.21801,19.72794
56.7,56.69999,7.10511,19.7702
57,57.00005,7.16449,19.81164
57.3,57.30005,7.19677,19.85447
57.6,57.60006,7.19627,19.89361
57.9,57.90005,7.24992,19.93459
58.2,58.20006,7.27818,19.95974
58.5,58.49999,7.31303,20.0016
58.8,58.80006,7.31192,20.04505
59.1,59.10011,7.26049,20.07776
59.4,59.39993,7.31143,20.12475
59.7,59.70005,7.34462,20.14489
60,60.00006,7.37542,20.19137